Sensor Model:   CARBONE C91
Serial Number:  C91_0404
Data Format:    4      (Log Ohms vs. Kelvin)
SetPoint Limit: 100.      (Kelvin)
Temperature coefficient:  1 (Negative)
Number of Breakpoints:   180

No.   Units      Temperature (K)

  1  1.95425       310.451
  2  2.00000       177.957
  3  2.04140       115.629
  4  2.07918        82.078
  5  2.11394        62.133
  6  2.14614        49.348
  7  2.17609        40.656
  8  2.20413        34.463
  9  2.23045        29.880
 10  2.25527        26.380
 11  2.27875        23.636
 12  2.30103        21.437
 13  2.34242        18.150
 14  2.38021        15.823
 15  2.41497        14.097
 16  2.44717        12.767
 17  2.47713        11.712
 18  2.50515        10.855
 19  2.53148        10.144
 20  2.55630         9.545
 21  2.57978         9.033
 22  2.60206         8.589
 23  2.62325         8.202
 24  2.64345         7.859
 25  2.66276         7.555
 26  2.68124         7.282
 27  2.69897         7.036
 28  2.71600         6.813
 29  2.73239         6.610
 30  2.74820         6.424
 31  2.76344         6.253
 32  2.77815         6.095
 33  2.79239         5.949
 34  2.80618         5.813
 35  2.81954         5.687
 36  2.83251         5.569
 37  2.84510         5.458
 38  2.85733         5.354
 39  2.86923         5.256
 40  2.88081         5.164
 41  2.89209         5.077
 42  2.90309         4.995
 43  2.91381         4.916
 44  2.92428         4.842
 45  2.93450         4.772
 46  2.94448         4.705
 47  2.95424         4.641
 48  2.96380         4.579
 49  2.97314         4.521
 50  2.98227         4.465
 51  2.99123         4.411
 52  3.00000         4.360
 53  3.02120         4.240
 54  3.04140         4.131
 55  3.06071         4.032
 56  3.07918         3.940
 57  3.09691         3.856
 58  3.11394         3.778
 59  3.13034         3.706
 60  3.14614         3.639
 61  3.16138         3.576
 62  3.17609         3.517
 63  3.19034         3.461
 64  3.20413         3.409
 65  3.21748         3.360
 66  3.23045         3.313
 67  3.24304         3.269
 68  3.25527         3.227
 69  3.26718         3.187
 70  3.27875         3.149
 71  3.29004         3.113
 72  3.30103         3.078
 73  3.32222         3.013
 74  3.34242         2.953
 75  3.36173         2.898
 76  3.38021         2.847
 77  3.39794         2.799
 78  3.41497         2.755
 79  3.43136         2.713
 80  3.44717         2.674
 81  3.46240         2.637
 82  3.47713         2.602
 83  3.49136         2.569
 84  3.50515         2.538
 85  3.51851         2.508
 86  3.53148         2.480
 87  3.54407         2.453
 88  3.55630         2.427
 89  3.56820         2.403
 90  3.57978         2.379
 91  3.59106         2.356
 92  3.60206         2.335
 93  3.61278         2.314
 94  3.62325         2.294
 95  3.63347         2.275
 96  3.64345         2.256
 97  3.65321         2.239
 98  3.66276         2.221
 99  3.67210         2.205
100  3.68124         2.189
101  3.69020         2.173
102  3.69897         2.158
103  3.71600         2.129
104  3.73239         2.103
105  3.74820         2.077
106  3.76344         2.053
107  3.77815         2.030
108  3.79239         2.009
109  3.80618         1.988
110  3.81954         1.969
111  3.83251         1.950
112  3.84510         1.933
113  3.85733         1.916
114  3.86923         1.900
115  3.88081         1.884
116  3.89209         1.869
117  3.90309         1.855
118  3.91381         1.841
119  3.92428         1.828
120  3.93450         1.815
121  3.94448         1.803
122  3.95424         1.791
123  3.96380         1.780
124  3.97314         1.769
125  3.98227         1.758
126  3.99123         1.747
127  4.00000         1.737
128  4.02119         1.714
129  4.04140         1.692
130  4.06070         1.671
131  4.07918         1.652
132  4.09691         1.634
133  4.11394         1.616
134  4.13033         1.600
135  4.14613         1.585
136  4.16137         1.570
137  4.17610         1.557
138  4.19033         1.543
139  4.20412         1.531
140  4.21748         1.519
141  4.23046         1.507
142  4.24305         1.496
143  4.25528         1.485
144  4.26717         1.475
145  4.27876         1.465
146  4.29003         1.455
147  4.30103         1.446
148  4.32222         1.428
149  4.34242         1.412
150  4.36173         1.396
151  4.38021         1.381
152  4.39794         1.367
153  4.41497         1.354
154  4.43137         1.341
155  4.44717         1.329
156  4.46240         1.318
157  4.47713         1.307
158  4.49137         1.296
159  4.50515         1.286
160  4.51851         1.277
161  4.53148         1.268
162  4.54407         1.259
163  4.55631         1.251
164  4.56820         1.243
165  4.57979         1.236
166  4.59107         1.229
167  4.60206         1.222
168  4.61278         1.216
169  4.62325         1.210
170  4.63347         1.204
171  4.64345         1.199
172  4.65321         1.194
173  4.66276         1.190
174  4.67210         1.186
175  4.68125         1.182
176  4.69020         1.178
177  4.69897         1.175
178  4.74037         1.164
179  4.77815         1.161
180  4.81291         1.160
