Sensor Model: CX-Bernina_cryochamber-Cryovac
Serial Number: X131693-Bernina_cryochamber
Data Format: 4 (Log Ohms/Kelvin)
SetPoint Limit: 424.0 (Kelvin)
Temperature coefficient: 1 (Negative)
Number of Breakpoints: 79

No. Units Temperature (K)

1	1.77506712	4.24E+02
2	1.779902182	4.19E+02
3	1.789853509	4.09E+02
4	1.800169679	3.99E+02
5	1.810747439	3.89E+02
6	1.821696902	3.79E+02
7	1.833043903	3.69E+02
8	1.844779135	3.59E+02
9	1.856888823	3.49E+02
10	1.869440421	3.39E+02
11	1.882395322	3.30E+02
12	1.895287236	3.20E+02
13	1.909380577	3.10E+02
14	1.924055355	3.00E+02
15	1.93921382	2.90E+02
16	1.9550761	2.80E+02
17	1.971526654	2.70E+02
18	1.988683443	2.60E+02
19	2.006623516	2.50E+02
20	2.025328489	2.40E+02
21	2.044818983	2.30E+02
22	2.06522448	2.20E+02
23	2.086635552	2.10E+02
24	2.10910284	2.00E+02
25	2.132698573	1.90E+02
26	2.15754326	1.80E+02
27	2.183693837	1.70E+02
28	2.21137166	1.60E+02
29	2.240688143	1.50E+02
30	2.271820477	1.40E+02
31	2.305009059	1.30E+02
32	2.3406047	1.20E+02
33	2.37894988	1.10E+02
34	2.420494003	1.00E+02
35	2.44268049	9.52E+01
36	2.465901859	9.02E+01
37	2.490381524	8.52E+01
38	2.516198524	8.02E+01
39	2.543443714	7.52E+01
40	2.572434577	7.02E+01
41	2.603368671	6.53E+01
42	2.636601482	6.03E+01
43	2.672516089	5.53E+01
44	2.71157219	5.03E+01
45	2.728188311	4.83E+01
46	2.754438735	4.53E+01
47	2.782261814	4.23E+01
48	2.812126663	3.93E+01
49	2.844148165	3.63E+01
50	2.878898476	3.33E+01
51	2.90505644	3.11E+01
52	2.928940482	2.93E+01
53	2.951595206	2.77E+01
54	2.975834358	2.61E+01
55	3.001997411	2.44E+01
56	3.029222269	2.28E+01
57	3.057374804	2.12E+01
58	3.077751161	2.01E+01
59	3.097185983	1.91E+01
60	3.117430373	1.82E+01
61	3.138946572	1.72E+01
62	3.161815153	1.63E+01
63	3.186248068	1.53E+01
64	3.21280949	1.43E+01
65	3.2418775	1.34E+01
66	3.274050203	1.24E+01
67	3.310118643	1.14E+01
68	3.351448319	1.03E+01
69	3.398974401	9.28E+00
70	3.45467593	8.23E+00
71	3.520699541	7.19E+00
72	3.58360321	6.36E+00
73	3.648144917	5.64E+00
74	3.704280487	5.12E+00
75	3.754449236	4.71E+00
76	3.825013665	4.21E+00
77	3.85717136	4.01E+00
78	3.89288797	3.80E+00
79	3.930472618	3.60E+00