Sensor Model:   Cold Plate
Serial Number:  X143499
Data Format:    4      (Log Ohms vs. Kelvin)
SetPoint Limit: 325.0      (Kelvin)
Temperature coefficient:  1 (Negative)
Number of Breakpoints:   149

No.   Units  Temperature (K)

  1  180227       331524000.000
  2  181075       325000000.000
  3  181876       319000000.000
  4  182626       313500000.000
  5  183392       308000000.000
  6  184174       302500000.000
  7  184974       297000000.000
  8  185791       291500000.000
  9  186627       286000000.000
 10  187481       280500000.000
 11  188355       275000000.000
 12  189249       269500000.000
 13  190164       264000000.000
 14  191101       258500000.000
 15  192060       253000000.000
 16  193042       247500000.000
 17  193956       242500000.000
 18  194890       237500000.000
 19  195845       232500000.000
 20  196823       227500000.000
 21  197823       222500000.000
 22  198847       217500000.000
 23  199895       212500000.000
 24  200969       207500000.000
 25  202069       202500000.000
 26  203197       197500000.000
 27  204354       192500000.000
 28  205540       187500000.000
 29  206758       182500000.000
 30  208008       177500000.000
 31  209162       173000000.000
 32  210345       168500000.000
 33  211558       164000000.000
 34  212802       159500000.000
 35  214079       155000000.000
 36  215391       150500000.000
 37  216738       146000000.000
 38  218124       141500000.000
 39  219550       137000000.000
 40  221018       132500000.000
 41  222363       128500000.000
 42  223743       124500000.000
 43  225164       120500000.000
 44  226627       116500000.000
 45  228135       112500000.000
 46  229692       108500000.000
 47  231299       104500000.000
 48  232753       101000000.000
 49  233820       98500000.000
 50  234908       96000000.000
 51  236022       93500000.000
 52  237164       91000000.000
 53  238333       88500000.000
 54  239532       86000000.000
 55  240762       83500000.000
 56  242026       81000000.000
 57  243324       78500000.000
 58  244660       76000000.000
 59  245759       74000000.000
 60  246884       72000000.000
 61  248038       70000000.000
 62  249221       68000000.000
 63  250437       66000000.000
 64  251686       64000000.000
 65  252972       62000000.000
 66  254295       60000000.000
 67  255659       58000000.000
 68  257067       56000000.000
 69  258374       54200000.000
 70  259720       52400000.000
 71  261110       50600000.000
 72  262544       48800000.000
 73  264028       47000000.000
 74  265564       45200000.000
 75  267157       43400000.000
 76  268626       41800000.000
 77  270144       40200000.000
 78  271719       38600000.000
 79  273355       37000000.000
 80  274948       35500000.000
 81  276603       34000000.000
 82  278327       32500000.000
 83  280004       31100000.000
 84  281750       29700000.000
 85  283575       28300000.000
 86  285347       27000000.000
 87  287200       25700000.000
 88  289144       24400000.000
 89  291031       23200000.000
 90  293012       22000000.000
 91  294927       20900000.000
 92  296388       20100000.000
 93  297615       19450000.000
 94  298885       18800000.000
 95  300202       18150000.000
 96  301569       17500000.000
 97  302882       16900000.000
 98  304244       16300000.000
 99  305664       15700000.000
100  307021       15150000.000
101  308434       14600000.000
102  309909       14050000.000
103  311452       13500000.000
104  312921       13000000.000
105  314456       12500000.000
106  316067       12000000.000
107  317763       11500000.000
108  319371       11050000.000
109  321060       10600000.000
110  322844       10150000.000
111  324732       9700000.000
112  326512       9300000.000
113  328392       8900000.000
114  330389       8500000.000
115  332517       8100000.000
116  334503       7750000.000
117  336613       7400000.000
118  338868       7050000.000
119  341285       6700000.000
120  343889       6350000.000
121  346296       6050000.000
122  348782       5760000.000
123  351558       5460000.000
124  354564       5160000.000
125  357617       4880000.000
126  360936       4600000.000
127  364307       4340000.000
128  367989       4080000.000
129  371092       3880000.000
130  373917       3710000.000
131  376947       3540000.000
132  380017       3380000.000
133  383319       3220000.000
134  386664       3070000.000
135  390274       2920000.000
136  394196       2770000.000
137  398180       2630000.000
138  402512       2490000.000
139  407256       2350000.000
140  412089       2220000.000
141  417384       2090000.000
142  422779       1970000.000
143  428720       1850000.000
144  434776       1740000.000
145  440883       1640000.000
146  447710       1540000.000
147  456124       1430000.000
148  458681       1400000.000
149  477729       1199000.000
