Sensor Model:   CX-1010-quickcal0913
Serial Number:  X89063
Data Format:    4      (Log Ohms/Kelvin)
SetPoint Limit: 100.0      (Kelvin)
Temperature coefficient:  1 (Negative)
Number of Breakpoints:   132

No.   Units      Temperature (K)

1	1.5	324
2	1.760566506982	100
3	1.764863641067	97.5
4	1.769357418016	95
5	1.77405304798	92.5
6	1.778955982562	90
7	1.784071934209	87.5
8	1.789406898212	85
9	1.794967177816	82.5
10	1.800759413094	80
11	1.806790614389	77.5
12	1.813068201366	75
13	1.819600049007	72.5
14	1.825014210735	70.5
15	1.830601009443	68.5
16	1.836365260774	66.5
17	1.84231207106	64.5
18	1.848446872594	62.5
19	1.854775465631	60.5
20	1.860972787076	58.6
21	1.867697595441	56.6
22	1.874635985908	54.6
23	1.881795819594	52.6
24	1.888436104397	50.8
25	1.895269612801	49
26	1.902303921318	47.2
27	1.909547420783	45.4
28	1.917009476424	43.6
29	1.924700630322	41.8
30	1.931739185923	40.2
31	1.938977767058	38.6
32	1.94642728264	37
33	1.954100282271	35.4
34	1.962011345509	33.8
35	1.969659356453	32.3
36	1.977548258277	30.8
37	1.985145936138	29.4
38	1.99298975355	28
39	2.001102622167	26.6
40	2.008901065875	25.3
41	2.016982330419	24
42	2.024721327307	22.8
43	2.032760922972	21.6
44	2.041139955174	20.4
45	2.047306346425	19.55
46	2.052544923087	18.85
47	2.057551522321	18.2
48	2.062707712804	17.55
49	2.068027678557	16.9
50	2.073097873284	16.3
51	2.078336311971	15.7
52	2.083760011787	15.1
53	2.088911225218	14.55
54	2.094252072325	14
55	2.09980268852	13.45
56	2.10558639026	12.9
57	2.111069319697	12.4
58	2.116790940299	11.9
59	2.122778717519	11.4
60	2.129064676795	10.9
61	2.135007896646	10.45
62	2.141255002376	10
63	2.147843371071	9.55
64	2.154816896379	9.1
65	2.161380660965	8.7
66	2.168332521657	8.3
67	2.175722897907	7.9
68	2.183611427797	7.5
69	2.190978068376	7.15
70	2.198836764653	6.8
71	2.207254258766	6.45
72	2.216310048082	6.1
73	2.225229023546	5.78
74	2.23484878929	5.46
75	2.245274753251	5.14
76	2.255894741288	4.84
77	2.266660282554	4.56
78	2.278379566869	4.28
79	2.290250804563	4.02
80	2.300127279936	3.82
81	2.309644302697	3.64
82	2.319244912163	3.47
83	2.329511109468	3.3
84	2.339854047264	3.14
85	2.351657222553	2.97
86	2.363630755848	2.81
87	2.375718367652	2.66
88	2.38875220935	2.51
89	2.401885848404	2.37
90	2.416084913892	2.23
91	2.430357492422	2.1
92	2.445829516471	1.97
93	2.461331765771	1.85
94	2.478183546984	1.73
95	2.496598660638	1.61
96	2.515079503427	1.5
97	2.53535649814	1.39
98	2.555623824028	1.29
99	2.573311117472	1.21
100	2.585126500376	1.16
101	2.595047155522	1.12
102	2.605421221081	1.08
103	2.616287653085	1.04
104	2.627690691938	1
105	2.639680876997	0.96
106	2.652316317237	0.92
107	2.663954271637	0.885
108	2.676189632384	0.85
109	2.689082343036	0.815
110	2.702701950853	0.78
111	2.717129774307	0.745
112	2.732461709155	0.71
113	2.746408905581	0.68
114	2.761189007214	0.65
115	2.776902605878	0.62
116	2.793669606587	0.59
117	2.811634382453	0.56
118	2.830972710375	0.53
119	2.848292024704	0.505
120	2.862285826902	0.486
121	2.876284137168	0.468
122	2.89108353277	0.45
123	2.906775862083	0.432
124	2.923468934006	0.414
125	2.941290229525	0.396
126	2.960391702347	0.378
127	2.978592380943	0.362
128	2.998102235836	0.346
129	3.019105517416	0.33
130	3.03888234088	0.316
131	3.057014093828	0.304
132	3.063324002502	0.3
